mouse.x,mouse.y,mouse.leftButton,mouse.midButton,mouse.rightButton,mouse.time,mouse.clicked_name,mouse.clicked_image,trials.thisRepN,trials.thisTrialN,trials.thisN,trials.thisIndex,trials.ran,stimulus,participant,session,date,expName,psychopyVersion,OS,frameRate
,,,,,,,,0,0,0,5,1,stimuli copy/chuttersnap-6ELMRvIuJ1g-unsplash.jpeg,MARA :D,001,2022-04-19_12h25.12.397,9.60trial3,2021.2.3,MacIntel,60.04202942
132.3505859,-42.5020752,1,0,0,2.1158,image,,0,1,1,3,1,stimuli copy/arjun-kapoor-Om3JbZp3CCo-unsplash.jpeg,MARA :D,001,2022-04-19_12h25.12.397,9.60trial3,2021.2.3,MacIntel,60.04202942
-210.111084,-160.6425171,1,0,0,2.2629,image,,0,2,2,13,1,stimuli copy/gritt-zheng-K88BVN6yMrU-unsplash.jpeg,MARA :D,001,2022-04-19_12h25.12.397,9.60trial3,2021.2.3,MacIntel,60.04202942
21.609375,188.3532104,1,0,0,2.8945,image,,0,3,3,10,1,stimuli copy/diego-ph-xW42e724p00-unsplash.jpeg,MARA :D,001,2022-04-19_12h25.12.397,9.60trial3,2021.2.3,MacIntel,60.04202942
9.661010742,-20.10491943,1,0,0,1.9435,image,,0,4,4,25,1,stimuli copy/michel-kimkongrath-EWpsHYyDL34-unsplash.jpeg,MARA :D,001,2022-04-19_12h25.12.397,9.60trial3,2021.2.3,MacIntel,60.04202942
60.75146484,-104.4793701,1,0,0,1.9972,image,,0,5,5,24,1,stimuli copy/max-saeling-ymfYqeKN-FU-unsplash.jpeg,MARA :D,001,2022-04-19_12h25.12.397,9.60trial3,2021.2.3,MacIntel,60.04202942
-120.2001953,33.30178833,1,0,0,2.396,image,,0,6,6,19,1,stimuli copy/library-of-congress-VFTxZaIsDAs-unsplash.jpeg,MARA :D,001,2022-04-19_12h25.12.397,9.60trial3,2021.2.3,MacIntel,60.04202942
30.01989746,-77.57336426,1,0,0,1.7773,image,,0,7,7,23,1,stimuli copy/mathew-schwartz-3z56aMRpjJ0-unsplash.jpeg,MARA :D,001,2022-04-19_12h25.12.397,9.60trial3,2021.2.3,MacIntel,60.04202942
15.03271484,10.41268921,1,0,0,1.9958,image,,0,8,8,8,1,stimuli copy/darya-sev-QRdX9dO8poY-unsplash.jpeg,MARA :D,001,2022-04-19_12h25.12.397,9.60trial3,2021.2.3,MacIntel,60.04202942
11.18804932,16.13415527,1,0,0,1.897,image,,0,9,9,18,1,stimuli copy/jordan-graff-87111nn8z_w-unsplash.jpeg,MARA :D,001,2022-04-19_12h25.12.397,9.60trial3,2021.2.3,MacIntel,60.04202942
13.82977295,-17.253479,1,0,0,1.6981,image,,0,10,10,9,1,stimuli copy/dave-hoefler-oi65oz2xNag-unsplash.jpeg,MARA :D,001,2022-04-19_12h25.12.397,9.60trial3,2021.2.3,MacIntel,60.04202942
38.0322876,-47.26373291,1,0,0,1.4451,image,,0,11,11,21,1,stimuli copy/mae-mu-KXq1wGn_OXI-unsplash.jpeg,MARA :D,001,2022-04-19_12h25.12.397,9.60trial3,2021.2.3,MacIntel,60.04202942
13.8571167,15.12762451,1,0,0,1.614,image,,0,12,12,15,1,stimuli copy/jake-remy-QBAMncfwXr8-unsplash.jpeg,MARA :D,001,2022-04-19_12h25.12.397,9.60trial3,2021.2.3,MacIntel,60.04202942
-47.20404053,-2.475128174,1,0,0,1.7447,image,,0,13,13,28,1,stimuli copy/ori-song-eK2YZq4a0fU-unsplash.jpeg,MARA :D,001,2022-04-19_12h25.12.397,9.60trial3,2021.2.3,MacIntel,60.04202942
-120.293335,135.980957,1,0,0,1.8311,image,,0,14,14,4,1,stimuli copy/chris-leipelt-fqoHScXjiW4-unsplash.jpeg,MARA :D,001,2022-04-19_12h25.12.397,9.60trial3,2021.2.3,MacIntel,60.04202942
-8.155395508,165.600647,1,0,0,1.9122,image,,0,15,15,27,1,stimuli copy/natalya-letunova-eCfCIwtKdsg-unsplash.jpeg,MARA :D,001,2022-04-19_12h25.12.397,9.60trial3,2021.2.3,MacIntel,60.04202942
-34.38781738,147.0751953,1,0,0,1.7457,image,,0,16,16,16,1,stimuli copy/james-haworth-Hm7BtNRT6eE-unsplash.jpeg,MARA :D,001,2022-04-19_12h25.12.397,9.60trial3,2021.2.3,MacIntel,60.04202942
40.48205566,126.99646,1,0,0,1.6993,image,,0,17,17,1,1,stimuli copy/alexandre-chambon-ADqQgiStp4c-unsplash.jpeg,MARA :D,001,2022-04-19_12h25.12.397,9.60trial3,2021.2.3,MacIntel,60.04202942
-193.3139038,-121.6704712,1,0,0,2.0138,image,,0,18,18,29,1,stimuli copy/ryan-wu-9R5FnAn5tYM-unsplash.jpeg,MARA :D,001,2022-04-19_12h25.12.397,9.60trial3,2021.2.3,MacIntel,60.04202942
-28.66369629,30.39993286,1,0,0,1.8453,image,,0,19,19,0,1,stimuli copy/aaron-burden-xNsoHwvoHnY-unsplash.jpeg,MARA :D,001,2022-04-19_12h25.12.397,9.60trial3,2021.2.3,MacIntel,60.04202942
181.7456665,98.29919434,1,0,0,2.1968,image,,0,20,20,6,1,stimuli copy/daniel-mirlea-w4lzk2_Yasc-unsplash.jpeg,MARA :D,001,2022-04-19_12h25.12.397,9.60trial3,2021.2.3,MacIntel,60.04202942
60.48632813,3.729522705,1,0,0,1.696,image,,0,21,21,22,1,stimuli copy/marek-mucha-PfmNfCXcrdw-unsplash.jpeg,MARA :D,001,2022-04-19_12h25.12.397,9.60trial3,2021.2.3,MacIntel,60.04202942
3.77746582,20.28253174,1,0,0,1.8605,image,,0,22,22,14,1,stimuli copy/jack-b-JYZYRF0j_Uc-unsplash.jpeg,MARA :D,001,2022-04-19_12h25.12.397,9.60trial3,2021.2.3,MacIntel,60.04202942
61.64642334,55.243927,1,0,0,1.9823,image,,0,23,23,7,1,stimuli copy/daniela-cuevas-t7YycgAoVSw-unsplash.jpeg,MARA :D,001,2022-04-19_12h25.12.397,9.60trial3,2021.2.3,MacIntel,60.04202942
66.91296387,161.7609253,1,0,0,2.9263,image,,0,24,24,12,1,stimuli copy/eberhard-grossgasteiger-fTlXjG24mQ0-unsplash.jpeg,MARA :D,001,2022-04-19_12h25.12.397,9.60trial3,2021.2.3,MacIntel,60.04202942
169.4655151,-4.82421875,1,0,0,1.4983,image,,0,25,25,11,1,stimuli copy/drew-farwell-ScLYGfuCqQg-unsplash.jpeg,MARA :D,001,2022-04-19_12h25.12.397,9.60trial3,2021.2.3,MacIntel,60.04202942
-147.7093506,-107.1124878,1,0,0,2.0967,image,,0,26,26,30,1,stimuli copy/samuel-clara-HkZVyO9l_Ig-unsplash.jpeg,MARA :D,001,2022-04-19_12h25.12.397,9.60trial3,2021.2.3,MacIntel,60.04202942
6.43762207,5.059936523,1,0,0,2.2645,image,,0,27,27,20,1,stimuli copy/long-truong-vRepMA0VQ54-unsplash.jpeg,MARA :D,001,2022-04-19_12h25.12.397,9.60trial3,2021.2.3,MacIntel,60.04202942
12.03118896,-38.55377197,1,0,0,1.3975,image,,0,28,28,26,1,stimuli copy/mwangi-gatheca-hvvNY6b8pE0-unsplash.jpeg,MARA :D,001,2022-04-19_12h25.12.397,9.60trial3,2021.2.3,MacIntel,60.04202942
90.66491699,22.47799683,1,0,0,2.0113,image,,0,29,29,2,1,stimuli copy/anthony-intraversato-xr43RescWSA-unsplash.jpeg,MARA :D,001,2022-04-19_12h25.12.397,9.60trial3,2021.2.3,MacIntel,60.04202942
-4.325256348,-107.1659546,1,0,0,1.8461,image,,0,30,30,17,1,stimuli copy/jared-rice-WbOn78k-ywU-unsplash.jpeg,MARA :D,001,2022-04-19_12h25.12.397,9.60trial3,2021.2.3,MacIntel,60.04202942
