mouse.x,mouse.y,mouse.leftButton,mouse.midButton,mouse.rightButton,mouse.time,mouse.clicked_name,mouse.clicked_image,trials.thisRepN,trials.thisTrialN,trials.thisN,trials.thisIndex,trials.ran,stimulus,participant,session,date,expName,psychopyVersion,OS,frameRate
-59.671875,-22.16796875,1,0,0,1.454,image,,0,0,0,4,1,stimuli copy/chris-leipelt-fqoHScXjiW4-unsplash.jpeg,shawna,001,2022-04-19_14h56.40.861,9.60trial3,2021.2.3,MacIntel,59.99880002
-108.7695313,-9.1875,1,0,0,2.2481,image,,0,1,1,8,1,stimuli copy/darya-sev-QRdX9dO8poY-unsplash.jpeg,shawna,001,2022-04-19_14h56.40.861,9.60trial3,2021.2.3,MacIntel,59.99880002
-9.95703125,155.3085938,1,0,0,2.1972,image,,0,2,2,27,1,stimuli copy/natalya-letunova-eCfCIwtKdsg-unsplash.jpeg,shawna,001,2022-04-19_14h56.40.861,9.60trial3,2021.2.3,MacIntel,59.99880002
-25.66015625,74.7421875,1,0,0,1.046,image,,0,3,3,0,1,stimuli copy/aaron-burden-xNsoHwvoHnY-unsplash.jpeg,shawna,001,2022-04-19_14h56.40.861,9.60trial3,2021.2.3,MacIntel,59.99880002
-57.89453125,23.53125,1,0,0,3.3316,image,,0,4,4,10,1,stimuli copy/diego-ph-xW42e724p00-unsplash.jpeg,shawna,001,2022-04-19_14h56.40.861,9.60trial3,2021.2.3,MacIntel,59.99880002
-14.79296875,23.36328125,1,0,0,1.7147,image,,0,5,5,14,1,stimuli copy/jack-b-JYZYRF0j_Uc-unsplash.jpeg,shawna,001,2022-04-19_14h56.40.861,9.60trial3,2021.2.3,MacIntel,59.99880002
-110.1757813,-163.6914063,1,0,0,2.416,image,,0,6,6,6,1,stimuli copy/daniel-mirlea-w4lzk2_Yasc-unsplash.jpeg,shawna,001,2022-04-19_14h56.40.861,9.60trial3,2021.2.3,MacIntel,59.99880002
-33.08984375,134.5273438,1,0,0,1.4482,image,,0,7,7,16,1,stimuli copy/james-haworth-Hm7BtNRT6eE-unsplash.jpeg,shawna,001,2022-04-19_14h56.40.861,9.60trial3,2021.2.3,MacIntel,59.99880002
4.93359375,-50.68359375,1,0,0,1.2972,image,,0,8,8,26,1,stimuli copy/mwangi-gatheca-hvvNY6b8pE0-unsplash.jpeg,shawna,001,2022-04-19_14h56.40.861,9.60trial3,2021.2.3,MacIntel,59.99880002
-7.09375,-23.26953125,1,0,0,1.6871,image,,0,9,9,9,1,stimuli copy/dave-hoefler-oi65oz2xNag-unsplash.jpeg,shawna,001,2022-04-19_14h56.40.861,9.60trial3,2021.2.3,MacIntel,59.99880002
87.5390625,14.33984375,1,0,0,1.6665,image,,0,10,10,2,1,stimuli copy/anthony-intraversato-xr43RescWSA-unsplash.jpeg,shawna,001,2022-04-19_14h56.40.861,9.60trial3,2021.2.3,MacIntel,59.99880002
4.37890625,30.5546875,1,0,0,1.8158,image,,0,11,11,18,1,stimuli copy/jordan-graff-87111nn8z_w-unsplash.jpeg,shawna,001,2022-04-19_14h56.40.861,9.60trial3,2021.2.3,MacIntel,59.99880002
59.6875,54.04296875,1,0,0,1.5318,image,,0,12,12,7,1,stimuli copy/daniela-cuevas-t7YycgAoVSw-unsplash.jpeg,shawna,001,2022-04-19_14h56.40.861,9.60trial3,2021.2.3,MacIntel,59.99880002
71.859375,36.31640625,1,0,0,2.3323,image,,0,13,13,22,1,stimuli copy/marek-mucha-PfmNfCXcrdw-unsplash.jpeg,shawna,001,2022-04-19_14h56.40.861,9.60trial3,2021.2.3,MacIntel,59.99880002
10.26171875,16.03515625,1,0,0,1.9171,image,,0,14,14,15,1,stimuli copy/jake-remy-QBAMncfwXr8-unsplash.jpeg,shawna,001,2022-04-19_14h56.40.861,9.60trial3,2021.2.3,MacIntel,59.99880002
-49.74609375,-109.6132813,1,0,0,1.7551,image,,0,15,15,12,1,stimuli copy/eberhard-grossgasteiger-fTlXjG24mQ0-unsplash.jpeg,shawna,001,2022-04-19_14h56.40.861,9.60trial3,2021.2.3,MacIntel,59.99880002
139.609375,-106.5742188,1,0,0,1.3162,image,,0,16,16,29,1,stimuli copy/ryan-wu-9R5FnAn5tYM-unsplash.jpeg,shawna,001,2022-04-19_14h56.40.861,9.60trial3,2021.2.3,MacIntel,59.99880002
-52.921875,3.70703125,1,0,0,1.8182,image,,0,17,17,28,1,stimuli copy/ori-song-eK2YZq4a0fU-unsplash.jpeg,shawna,001,2022-04-19_14h56.40.861,9.60trial3,2021.2.3,MacIntel,59.99880002
38.29296875,100.4609375,1,0,0,3.6665,image,,0,18,18,19,1,stimuli copy/library-of-congress-VFTxZaIsDAs-unsplash.jpeg,shawna,001,2022-04-19_14h56.40.861,9.60trial3,2021.2.3,MacIntel,59.99880002
49.07421875,-130.96875,1,0,0,1.8187,image,,0,19,19,24,1,stimuli copy/max-saeling-ymfYqeKN-FU-unsplash.jpeg,shawna,001,2022-04-19_14h56.40.861,9.60trial3,2021.2.3,MacIntel,59.99880002
77.80859375,16.23046875,1,0,0,2.8181,image,,0,20,20,1,1,stimuli copy/alexandre-chambon-ADqQgiStp4c-unsplash.jpeg,shawna,001,2022-04-19_14h56.40.861,9.60trial3,2021.2.3,MacIntel,59.99880002
1.71484375,-3.08203125,1,0,0,1.7506,image,,0,21,21,20,1,stimuli copy/long-truong-vRepMA0VQ54-unsplash.jpeg,shawna,001,2022-04-19_14h56.40.861,9.60trial3,2021.2.3,MacIntel,59.99880002
13.85546875,9.359375,1,0,0,1.7656,image,,0,22,22,5,1,stimuli copy/chuttersnap-6ELMRvIuJ1g-unsplash.jpeg,shawna,001,2022-04-19_14h56.40.861,9.60trial3,2021.2.3,MacIntel,59.99880002
7.74609375,-123.2109375,1,0,0,1.834,image,,0,23,23,23,1,stimuli copy/mathew-schwartz-3z56aMRpjJ0-unsplash.jpeg,shawna,001,2022-04-19_14h56.40.861,9.60trial3,2021.2.3,MacIntel,59.99880002
-4.46875,-110.8085938,1,0,0,2.1504,image,,0,24,24,17,1,stimuli copy/jared-rice-WbOn78k-ywU-unsplash.jpeg,shawna,001,2022-04-19_14h56.40.861,9.60trial3,2021.2.3,MacIntel,59.99880002
6.01953125,-27.34765625,1,0,0,1.8507,image,,0,25,25,25,1,stimuli copy/michel-kimkongrath-EWpsHYyDL34-unsplash.jpeg,shawna,001,2022-04-19_14h56.40.861,9.60trial3,2021.2.3,MacIntel,59.99880002
164.3828125,-98.23828125,1,0,0,2.2326,image,,0,26,26,13,1,stimuli copy/gritt-zheng-K88BVN6yMrU-unsplash.jpeg,shawna,001,2022-04-19_14h56.40.861,9.60trial3,2021.2.3,MacIntel,59.99880002
60.18359375,-68.87890625,1,0,0,2.1011,image,,0,27,27,3,1,stimuli copy/arjun-kapoor-Om3JbZp3CCo-unsplash.jpeg,shawna,001,2022-04-19_14h56.40.861,9.60trial3,2021.2.3,MacIntel,59.99880002
162.0703125,-14.32421875,1,0,0,1.6179,image,,0,28,28,11,1,stimuli copy/drew-farwell-ScLYGfuCqQg-unsplash.jpeg,shawna,001,2022-04-19_14h56.40.861,9.60trial3,2021.2.3,MacIntel,59.99880002
,,,,,,,,0,29,29,30,1,stimuli copy/samuel-clara-HkZVyO9l_Ig-unsplash.jpeg,shawna,001,2022-04-19_14h56.40.861,9.60trial3,2021.2.3,MacIntel,59.99880002
34.0546875,-61.72265625,1,0,0,3.202,image,,0,30,30,21,1,stimuli copy/mae-mu-KXq1wGn_OXI-unsplash.jpeg,shawna,001,2022-04-19_14h56.40.861,9.60trial3,2021.2.3,MacIntel,59.99880002
